acc_x, acc_y, angular_z, stamp, 
-0.010761082172393799, -0.0007659196853637695, 9.930684002051863e-07, 1759350513162122451
0.01469510793685913, 0.021431326866149902, 9.79881668946162e-07, 1759350513192566695
0.014212489128112793, -0.004288852214813232, 9.197942553831143e-07, 1759350513224994815
-0.007387399673461914, 0.007220208644866943, 6.297154354098858e-10, 1759350513254327146
-0.005676448345184326, 0.005413055419921875, 1.059044579384356e-06, 1759350513282481153
0.01036614179611206, 0.008415043354034424, 4.753617312793123e-10, 1759350513311432373
0.028145134449005127, -0.016878724098205566, 2.3786040801440553e-10, 1759350513335337297
-0.008048295974731445, -0.003649473190307617, 1.0877701314610461e-06, 1759350513362742882
-0.056843698024749756, 0.012202620506286621, 9.97426946811047e-07, 1759350513392626623
0.004278659820556641, 0.0098227858543396, 9.909644381322147e-07, 1759350513422706604
0.051449477672576904, -0.007354259490966797, 9.917234402509692e-07, 1759350513452765817
0.007690072059631348, -0.015199244022369385, 1.8064229810995224e-10, 1759350513482864094
-0.04985266923904419, -0.014516830444335938, 4.60415312068402e-11, 1759350513513003547
-0.02080482244491577, 0.018201887607574463, 5.458922762352055e-11, 1759350513544850497
0.016969501972198486, -0.00399857759475708, 9.43067800240087e-11, 1759350513575157115
0.027908384799957275, -0.022881627082824707, 1.1043215553198971e-06, 1759350513602146351
0.014010906219482422, 0.003428339958190918, 9.87638328030619e-07, 1759350513693390744
0.031655192375183105, -0.01349782943725586, -1.1997029181314925e-10, 1759350513723353421
-0.016798198223114014, -0.028738856315612793, 9.894302649321952e-07, 1759350513753470919
-0.0348207950592041, -0.007275044918060303, -1.3573849916376716e-10, 1759350513782166015
-0.0022899508476257324, 0.0107041597366333, 8.771486539335489e-07, 1759350513816135575
0.019742071628570557, 0.009376049041748047, 1.0800939235829161e-06, 1759350513843720182
0.030496418476104736, -0.0034834742546081543, 9.934962333404216e-07, 1759350513873708076
0.003740668296813965, -0.0032535195350646973, 9.827219738318299e-07, 1759350513904023179
-0.02281951904296875, 0.002604067325592041, 9.941152873602067e-07, 1759350513933987796
0.027426183223724365, 0.003733038902282715, 9.948988872562013e-07, 1759350513963926643
0.032817184925079346, -0.03521674871444702, 9.897150717322972e-07, 1759350513994025985
-0.0107535719871521, -0.013869225978851318, 9.685487633513396e-07, 1759350514024784974
0.03243303298950195, 0.012034595012664795, 6.159744435556485e-07, 1759350514105015185
-0.010967731475830078, 0.013981878757476807, -1.8358219213855335e-10, 1759350514194884165
0.05766552686691284, 0.007124066352844238, 7.448893880502705e-07, 1759350514234874884
0.0032201409339904785, -0.012651681900024414, -1.1736085155411496e-10, 1759350514296390907
-0.007761716842651367, 0.015801072120666504, 9.401767887522234e-07, 1759350514328088444
0.005235552787780762, 0.02056986093521118, -0.002289850757834611, 1759350514354990156
0.09163588285446167, -0.011132359504699707, -0.005198273471252456, 1759350514385369964
1.2088457345962524, -0.5382175445556641, -0.1172109846623654, 1759350514415291138
0.8950112462043762, 0.4264337420463562, -0.3321699744656404, 1759350514474155744
0.27338677644729614, -0.1695774793624878, -0.3714955710087248, 1759350514504170668
0.8055448532104492, -0.5672196745872498, -0.38904284714766313, 1759350514536355793
1.1720373630523682, -0.25526249408721924, -0.473267447620624, 1759350514568818484
0.7024003863334656, 0.26066142320632935, -0.6982583016446061, 1759350514595638484
0.487846314907074, -0.22765105962753296, -0.681018481175009, 1759350514625744205
0.8862851858139038, -0.648955225944519, -0.784668098769414, 1759350514655415243
1.1765636205673218, -0.17201852798461914, -0.8246070404474963, 1759350514685473593
0.6012754440307617, -0.2185094952583313, -0.8892660741985776, 1759350514715598517
1.1320927143096924, -0.6344553828239441, -0.9664166167974909, 1759350514745650658
0.837669312953949, -0.21429979801177979, -1.0228994560784963, 1759350514776523873
-0.08549118041992188, -0.4249610900878906, -1.0082776796806656, 1759350514808451644
0.14886820316314697, -0.25616198778152466, -1.0794126369158328, 1759350514896001849
-0.16105759143829346, -0.3479255437850952, -1.1355832575741602, 1759350514925160916
-0.23181796073913574, -0.29514092206954956, -1.0485495926414392, 1759350514986333595
-0.8990414142608643, -0.20664888620376587, -1.0368844336938559, 1759350515016679125
0.757844090461731, -0.45838773250579834, -0.9983844849279296, 1759350515048588180
0.06732916831970215, -0.6386142373085022, -1.0323567652200702, 1759350515078743003
-0.39272189140319824, 0.19295495748519897, -1.0938023446350786, 1759350515106544116
0.45216697454452515, -0.6785153150558472, -1.0383676582079484, 1759350515136447234
-0.7316749691963196, -0.22466158866882324, -1.0762911691206887, 1759350515166631796
-0.00708162784576416, -0.3711223006248474, -1.0614077773933062, 1759350515196615611
-0.019395411014556885, -0.19661247730255127, -1.0609914010383013, 1759350515226649682
0.07090765237808228, -0.1832597255706787, -1.0133044216962206, 1759350515256751058
-0.046364665031433105, -1.055383324623108, -0.9994627211779916, 1759350515288288738
-0.3931899666786194, -0.26676803827285767, -1.0069887388710976, 1759350515320233737
-1.2532600164413452, -0.07393240928649902, -1.2033567355562784, 1759350515347011705
0.3942156434059143, -0.5250149369239807, -1.1217711398262322, 1759350515377018807
0.15261447429656982, -0.06833130121231079, -1.1136489376477867, 1759350515407111143
1.100304126739502, -0.7711244225502014, -1.0479042651182746, 1759350515437141315
-0.13165396451950073, 0.4406883716583252, -1.074130675506547, 1759350515467197133
-0.2421085238456726, -0.93238765001297, -1.059852319512139, 1759350515497265188
-0.565014660358429, -0.46312564611434937, -1.0025370632670403, 1759350515528685882
-0.14187443256378174, -0.4404563903808594, -1.039367685590145, 1759350515560499413
-0.13125258684158325, -0.1552271842956543, -1.1983185163141785, 1759350515587573595
1.0839444398880005, -0.26912784576416016, -1.08749777676094, 1759350515626595695
-0.47586631774902344, -0.3130285143852234, -1.0350842456351754, 1759350515657632615
0.7752411365509033, -0.22516542673110962, -1.021360145393041, 1759350515688359621
0.024176478385925293, -0.6239332556724548, -0.9795937845538082, 1759350515720699609
-0.45776432752609253, -0.37192338705062866, -1.178651601481921, 1759350515747918250
-0.5419327616691589, -0.4784948229789734, -1.0703141432888588, 1759350515777883549
0.7147539258003235, 0.42869192361831665, -1.1409214719335958, 1759350515807989816
-0.014124274253845215, -0.3664059638977051, -1.10078227247948, 1759350515838077255
0.8148454427719116, -0.3780859112739563, -1.0671360413349948, 1759350515867224576
-0.3629191517829895, -0.1917874813079834, -1.0384355801908032, 1759350515898197395
-1.0253900289535522, -0.7323569655418396, -1.0699453987483012, 1759350515928353707
-0.23225724697113037, -0.47060245275497437, -1.0409995000269783, 1759350515960271276
-0.1361711621284485, -0.45100486278533936, -1.1936249252456002, 1759350515988545486
0.07936978340148926, -0.3975980877876282, -1.1045315568120728, 1759350516018527442
0.6992705464363098, 0.032865822315216064, -1.1251995407986204, 1759350516048730454
-0.38556045293807983, -0.02812051773071289, -1.1221341484462355, 1759350516078788004
-0.4893534183502197, -0.5272475481033325, -1.072036650811616, 1759350516108667734
0.1734936237335205, -0.6988561153411865, -1.0372446996336022, 1759350516138693659
-0.3109695315361023, -1.2351484298706055, -1.020717015241027, 1759350516200216955
-0.29844731092453003, 0.08515399694442749, -0.9852183536153398, 1759350516232417648
1.0802499055862427, -0.490383505821228, -1.141408607154584, 1759350516298267501
-0.5089681148529053, 0.07651388645172119, -1.01702359710788, 1759350516329837373
-1.0293322801589966, -0.7463582754135132, -0.9831900169203264, 1759350516360960487
-1.0070682764053345, -0.12465006113052368, -1.1684183512614457, 1759350516420122823
-0.060909807682037354, -0.016488611698150635, -1.0784669346434819, 1759350516449952567
-0.0194016695022583, -0.24283981323242188, -1.0749762903434597, 1759350516480141575
-0.021886765956878662, -0.7134681344032288, -1.0439090328424228, 1759350516510134745
0.19915425777435303, -0.45221126079559326, -1.0890870888650646, 1759350516540030761
-0.18544018268585205, -0.5725616216659546, -1.1101565069178467, 1759350516570060012
-0.889968991279602, -0.3172348737716675, -1.020896772371964, 1759350516600595834
0.22629034519195557, -0.8137640953063965, -0.975750089122415, 1759350516632671640
-0.554070770740509, -0.17975282669067383, -1.1535808340975597, 1759350516660289698
0.4202028512954712, -0.27381861209869385, -1.0604929395241058, 1759350516690551583
-0.23632079362869263, -0.4252215623855591, -1.0536946117405313, 1759350516750278490
-0.8848413825035095, -0.6035470366477966, -1.0811697836054146, 1759350516780506813
0.33350813388824463, -0.3511803150177002, -1.1232401848737592, 1759350516810357068
0.13302582502365112, -0.5815338492393494, -1.1115392569807991, 1759350516840320368
0.8568203449249268, -0.22801560163497925, -0.9749969386906666, 1759350516873025929
-0.30871909856796265, -0.023420214653015137, -1.0671636643873983, 1759350516930817780
-0.3989673852920532, 0.029830992221832275, -1.0928523062290396, 1759350516960556234
-0.3003131151199341, -0.7643136978149414, -1.0765163496737462, 1759350516990623919
0.36874157190322876, -0.10294818878173828, -1.1031066010292578, 1759350517050887722
-0.9719955921173096, -0.15623819828033447, -1.093578011576979, 1759350517080778576
-0.4098362922668457, -0.4684443473815918, -1.0438956656836549, 1759350517144375814
-0.6199585199356079, -0.61335289478302, -1.2098895400943115, 1759350517171208186
-0.3855634331703186, -0.428114116191864, -1.041532637127261, 1759350517201277204
0.09683316946029663, -0.16351419687271118, -1.089087486379772, 1759350517231136096
-1.1090553998947144, -0.10825711488723755, -1.1070617427255067, 1759350517260177573
0.13606518507003784, -0.5635966658592224, -1.0377574822345308, 1759350517291284264
-0.3371080160140991, -0.8678445219993591, -1.121762840247547, 1759350517321344673
-0.6715580224990845, -0.21369552612304688, -1.0133250652385195, 1759350517352852846
1.0587027072906494, -0.7022483348846436, -0.9878101800659519, 1759350517384822982
0.07129311561584473, -0.10934138298034668, -1.2541342985517006, 1759350517411155157
-0.15043103694915771, -0.33879244327545166, -0.998601453269844, 1759350517463798431
-0.305134117603302, -0.15710049867630005, -1.1446802162810636, 1759350517501742397
0.5590870380401611, -0.288687527179718, -1.1474845097991417, 1759350517561271411
0.05814063549041748, -0.2614346146583557, -1.040819825735556, 1759350517592597313
0.05413419008255005, -0.7586532831192017, -1.1675862670922614, 1759350517652255935
-0.38878756761550903, -0.39142119884490967, -1.0280928161672391, 1759350517682554515
0.6310169696807861, -0.10678887367248535, -1.053439762401358, 1759350517712454029
-0.33793967962265015, -0.7383962273597717, -1.0673286280369834, 1759350517742872074
0.035246193408966064, -0.049183011054992676, -1.0503854381839406, 1759350517772323257
0.271185040473938, -0.5827766060829163, -1.1098508240120606, 1759350517802477715
-0.34499263763427734, 0.0036876797676086426, -1.0905496807318387, 1759350517833030324
0.17874759435653687, -0.8731973767280579, -1.0003342283459355, 1759350517864695221
-0.4004499912261963, -0.16937732696533203, -1.057921173371862, 1759350517894804757
0.2569698691368103, -0.15283352136611938, -1.039564784388433, 1759350517943425566
0.257779598236084, -0.6557532548904419, -0.9959854915066454, 1759350517975315084
-0.8757554292678833, -0.19024980068206787, -1.1483464673826904, 1759350518003093365
-0.6466842889785767, -0.2375645637512207, -1.0903208891014964, 1759350518032997870
0.3770495653152466, -0.8742499947547913, -1.1516532276570057, 1759350518063054168
-0.09107786417007446, -0.6165789365768433, -1.1333955969908658, 1759350518093060880
0.679121196269989, -0.4187580943107605, -1.0777656150061428, 1759350518123118603
-0.049629390239715576, -0.21695923805236816, -1.1245130735221027, 1759350518152185670
-0.052053630352020264, -0.6336014866828918, -0.9756301129775945, 1759350518184896814
0.4043000340461731, -0.38475942611694336, -0.9763322243325628, 1759350518216732320
-0.22008371353149414, -0.5977349877357483, -1.2138007302923037, 1759350518243442841
0.7619647979736328, -0.6577377915382385, -0.9780840266428911, 1759350518296366540
-0.46476930379867554, -0.6200494170188904, -1.2264092390564245, 1759350518333817439
-0.41036903858184814, 0.06057161092758179, -1.0847757454683298, 1759350518363630689
-0.09165191650390625, -1.1220301389694214, -1.0469097581140292, 1759350518393699202
-0.7566044926643372, 0.06969177722930908, -0.9897221703624479, 1759350518425403731
0.1600801944732666, -0.7176263332366943, -1.0001083945018978, 1759350518456460386
-0.03569608926773071, -0.035663723945617676, -1.1745846625461402, 1759350518484305620
0.06759655475616455, -0.36792564392089844, -1.128554170703713, 1759350518514010098
0.9334138631820679, -0.5931488871574402, -1.0981794737115564, 1759350518544084082
-0.5623941421508789, -0.30106228590011597, -1.127495543199427, 1759350518574136790
-1.0312086343765259, -0.9776077270507812, -1.0718949952685575, 1759350518604351635
0.15524500608444214, -0.05825108289718628, -1.0351594834917817, 1759350518635223117
-0.20603597164154053, -0.47082388401031494, -1.1186015051933993, 1759350518664149491
0.03875911235809326, -0.9637113213539124, -0.975190168384289, 1759350518696865185
0.10441476106643677, -0.07473737001419067, -1.0907871952255175, 1759350518726223563
-1.329799771308899, -0.6204597353935242, -1.111145861932555, 1759350518755037298
-0.23962444067001343, -0.525795042514801, -1.1149418296417664, 1759350518785248476
0.5736216306686401, -0.10991758108139038, -1.007694852572191, 1759350518807998336
0.4075024724006653, -0.38715940713882446, -1.1345047520187765, 1759350518845087624
0.6140965819358826, -0.47285038232803345, -1.0543324509555336, 1759350518875123076
0.23311179876327515, -0.20182782411575317, -1.0613812437408898, 1759350518905303750
-0.23023200035095215, -0.6874865889549255, -1.0402987888658004, 1759350518936474468
-0.3269280195236206, -0.3876924514770508, -1.0248495645445248, 1759350518968443550
0.24592483043670654, -0.42886632680892944, -1.2029085284982584, 1759350518996002265
0.37026262283325195, -0.17039638757705688, -1.1211376129985893, 1759350519025306849
0.9575207233428955, -0.0814167857170105, -1.0880393110822253, 1759350519055334795
-0.5808286666870117, -0.2208712100982666, -1.084395378765748, 1759350519085355462
-1.702694296836853, -0.6038584113121033, -1.0380239090110004, 1759350519115371491
-0.303844153881073, -0.7230913639068604, -1.034896965250561, 1759350519145604742
-0.4095277190208435, -0.32788586616516113, -1.0335656923570629, 1759350519176924473
-0.1538848876953125, -0.6193427443504333, -1.0376380724301335, 1759350519208831103
0.12067151069641113, -0.4947163462638855, -1.237315392344954, 1759350519235174506
-0.1984228491783142, 0.013861358165740967, -1.050604067254403, 1759350519265691171
-0.08586424589157104, -0.39059168100357056, -1.080150209171261, 1759350519295736091
0.13685476779937744, -0.6141276955604553, -1.1023961215332114, 1759350519325913164
-1.056966781616211, -0.7084473371505737, -1.0725919108720299, 1759350519355166930
0.17855626344680786, -0.18472027778625488, -1.0106803341676847, 1759350519386118108
-0.15793061256408691, -0.6326344013214111, -1.0777843840876613, 1759350519416692473
0.18856781721115112, -0.22937524318695068, -1.0153038369641547, 1759350519448480226
0.12114572525024414, -0.30121761560440063, -1.2064698822096507, 1759350519475187522
-0.7019514441490173, -0.40323150157928467, -1.04634505279059, 1759350519506277496
-0.15817010402679443, -0.7285821437835693, -1.0738224736568056, 1759350519536247811
-0.29971474409103394, -0.78316730260849, -1.1197562362326956, 1759350519566463385
-0.14627081155776978, -0.6384027600288391, -1.1054638004491335, 1759350519596411356
0.8973302841186523, -0.1264999508857727, -1.035307315758915, 1759350519626505980
0.2769266366958618, -0.11566871404647827, -1.0700388018895002, 1759350519656522097
0.07555216550827026, -0.3309929370880127, -0.9593456113371144, 1759350519689371755
0.6971170902252197, -0.36248260736465454, -1.0768240520167824, 1759350519718889081
-0.7640848159790039, -0.39507168531417847, -1.1721389663870048, 1759350519746717244
-0.025743484497070312, -0.8102375864982605, -1.0983929491469597, 1759350519776751959
0.9805792570114136, 0.02082270383834839, -0.9672187243678912, 1759350519799728413
-0.6404911279678345, -0.2596578001976013, -1.2029445108968835, 1759350519826975545
-0.3054807782173157, -0.7702792882919312, -1.0487010905553225, 1759350519857011776
-0.0943869948387146, -0.2689271569252014, -1.0512078279555765, 1759350519887072919
0.0005840063095092773, -0.3153003454208374, -1.0560569631937888, 1759350519917340226
0.19905012845993042, -0.7978667616844177, -1.0906799680421277, 1759350519947188130
-0.013014376163482666, -0.08627808094024658, -1.0900685477151506, 1759350519977214532
-0.7626283168792725, -0.7283465266227722, -1.040613057431585, 1759350520009032841
0.8491919040679932, -0.11996108293533325, -1.2781972594378814, 1759350520067580955
0.05545651912689209, -0.4861394166946411, -1.0926248770128728, 1759350520097518143
-0.5119642019271851, -0.6850200295448303, -0.8937376589758155, 1759350520120776084
0.11557614803314209, -0.4511541724205017, -1.1815815922399875, 1759350520157631684
0.10592907667160034, -0.627832293510437, -1.0501467600143775, 1759350520217731813
0.1231873631477356, -0.5994053483009338, -1.0489050360786343, 1759350520248915916
-0.2664945721626282, 0.038720548152923584, -1.0643372964071482, 1759350520280564972
0.5405439734458923, -0.4171444773674011, -1.2002562079268242, 1759350520308342992
-0.47797030210494995, -0.15481871366500854, -1.1351971822095386, 1759350520338071181
-1.226906418800354, -0.2310146689414978, -1.0742991346658768, 1759350520368105565
0.47132885456085205, -0.46047377586364746, -1.0253670220817248, 1759350520398291794
-0.3063402771949768, -0.18512451648712158, -1.0476813510567204, 1759350520428288428
0.03931164741516113, -0.3367893695831299, -1.0158373518977535, 1759350520458465078
-0.12503719329833984, -0.6515836119651794, -1.0369381723697866, 1759350520488962155
-0.39963847398757935, 0.058677613735198975, -0.9881841262911395, 1759350520520963825
-0.004285573959350586, -0.810096263885498, -1.1892143233550827, 1759350520548597086
0.22458338737487793, -0.37744468450546265, -1.1228053598784238, 1759350520578588831
-0.5899791717529297, -0.21653157472610474, -1.0660016630698173, 1759350520608600586
0.29671233892440796, -0.37664759159088135, -1.0502702464241933, 1759350520638972373
-0.26508235931396484, -0.6821550130844116, -1.042454834960792, 1759350520698829099
0.21468162536621094, -0.4274047613143921, -1.063343185255343, 1759350520729056246
-0.8580977320671082, -0.5342244505882263, -1.056493129027545, 1759350520760989018
0.7968366146087646, -0.16725045442581177, -1.2715395416337405, 1759350520818170700
0.1261804699897766, -0.18196558952331543, -1.102780681286607, 1759350520848154208
0.7895767092704773, -0.19291311502456665, -1.0101566678363147, 1759350520879251785
-0.21406757831573486, -0.31892329454421997, -1.0607985271175107, 1759350520909393492
-0.39209210872650146, -0.37923943996429443, -1.005207708826653, 1759350520970193668
0.3163416385650635, -0.08326029777526855, -1.0681514419426021, 1759350521000511045
0.16331565380096436, -0.6848465800285339, -0.9588759068481364, 1759350521033402428
0.64503014087677, 0.17002934217453003, -1.2057761375939593, 1759350521060472283
-1.3198636770248413, -0.09921813011169434, -0.9112640967139585, 1759350521112719930
-0.4449039697647095, -0.2190675139427185, -1.1085104738288196, 1759350521150229737
-0.6492249965667725, -0.6697278618812561, -1.1094923410727953, 1759350521180235064
-0.137395977973938, -0.17920935153961182, -1.0998683813416408, 1759350521210217932
-0.12556922435760498, -0.05234187841415405, -1.057857097617288, 1759350521240710432
0.3369789123535156, -0.553986668586731, -0.9826965582446783, 1759350521273555924
0.9158006310462952, 0.14132267236709595, -1.2024294176265289, 1759350521300585562
-0.3435536026954651, -0.6906535625457764, -1.126824167513743, 1759350521330576739
-1.3070069551467896, -0.13990986347198486, -1.0921657312455115, 1759350521360477982
-0.1353703737258911, -0.5364730358123779, -1.0618776959401142, 1759350521390828990
-0.08210742473602295, -0.2700082063674927, -1.1250003077537807, 1759350521420495207
-0.3251398205757141, -0.5711708068847656, -1.10366932265053, 1759350521450630548
0.3730292320251465, -0.425470232963562, -1.079521942299286, 1759350521481033810
-0.8739190101623535, -0.5394548773765564, -1.0402961629193563, 1759350521512802940
-0.6377102136611938, 0.04447066783905029, -1.177833786787436, 1759350521540714549
0.8194859623908997, -0.7252202033996582, -1.0706567501329192, 1759350521570864019
-0.10520964860916138, -0.2681269645690918, -1.036642199044592, 1759350521601127813
0.8921806812286377, 0.06321913003921509, -1.0527222386816186, 1759350521630947755
-0.1622282862663269, -0.7965493202209473, -1.0765098641781206, 1759350521661013486
-0.42591047286987305, -0.7030028104782104, -1.0894553257098418, 1759350521720168268
-0.0071010589599609375, -0.2666170597076416, -0.9419353074730114, 1759350521752961336
-0.18153172731399536, -0.597739577293396, -0.980582886108482, 1759350521784389474
0.4151151180267334, 0.4020748734474182, -1.2357580098118277, 1759350521811505568
-0.4552288055419922, -0.2308039665222168, -1.1168524622299767, 1759350521841722604
-1.1108485460281372, -0.03210461139678955, -0.8977882205442017, 1759350521865392678
-0.12548494338989258, -0.4137982726097107, -1.2187071405292873, 1759350521901747890
-0.7854145765304565, -0.652421236038208, -1.1031997847894248, 1759350521931585391
0.027448058128356934, -0.14984440803527832, -1.0714944334140946, 1759350521961645935
-0.7068434953689575, -0.529116153717041, -1.0288550061335402, 1759350521993449364
-0.27732205390930176, -0.5355409383773804, -1.0152655517246931, 1759350522024780911
0.23510396480560303, -0.4632453918457031, -1.1768037229132253, 1759350522051975384
-0.38745182752609253, -0.07932579517364502, -1.1174576422337559, 1759350522082253171
-0.4920867681503296, -0.5384250283241272, -1.106892917830163, 1759350522111985415
-0.34599995613098145, -0.044840872287750244, -0.9665833723889161, 1759350522185219807
0.07724356651306152, -0.428327739238739, -1.150656209916553, 1759350522212261887
-0.674547016620636, -0.5215646624565125, -0.9528719894064731, 1759350522264940618
0.20536470413208008, -0.5460422039031982, -1.1817751798739182, 1759350522302418519
-0.22128784656524658, -0.6779999732971191, -1.1384952973915106, 1759350522332470879
-0.6393072009086609, -0.9938072562217712, -1.047606425888754, 1759350522362619903
0.6851930022239685, 0.101284921169281, -1.0445668914240482, 1759350522393076247
-0.06150615215301514, -0.2703985571861267, -1.0381363156011116, 1759350522424788052
-0.01351863145828247, -0.49621111154556274, -1.0885592437431164, 1759350522454847883
-0.26760947704315186, -0.13348835706710815, -1.140989871660874, 1759350522492809013
-0.8181918859481812, -0.22256594896316528, -1.08976131786309, 1759350522523030876
0.16857486963272095, -0.5371354222297668, -1.1231493373159984, 1759350522552991873
-0.19400185346603394, -0.8726415634155273, -1.033195944403518, 1759350522584728554
0.005989015102386475, -0.11997443437576294, -1.001416265810174, 1759350522616056375
0.4307708740234375, -0.7766488194465637, -1.1371173619896546, 1759350522643310623
-0.4068911671638489, -0.6673704981803894, -1.0816994828742932, 1759350522673433031
-0.11941224336624146, -0.18759894371032715, -1.1044784062659938, 1759350522703359836
0.20145028829574585, -0.8301136493682861, -1.080773809621359, 1759350522733458026
-0.5141686797142029, 0.064816415309906, -1.1169566763909182, 1759350522763448233
0.5161938071250916, -0.42563754320144653, -1.1276640137502438, 1759350522824145517
-0.04166841506958008, -0.18432343006134033, -1.0272911627670205, 1759350522856822164
0.8542673587799072, -0.17176282405853271, -1.180073291642881, 1759350522883998947
0.21316200494766235, -0.31210869550704956, -1.089415341511685, 1759350522913754857
-0.45637059211730957, -0.4883316159248352, -1.0446974783069938, 1759350522943849363
0.3268359303474426, -0.48780345916748047, -1.0825126967849623, 1759350522973915042
-0.42670196294784546, -0.7529036402702332, -1.121947503544, 1759350523002979885
0.11720836162567139, -0.22811990976333618, -1.0234752929578714, 1759350523034059431
-0.3592516779899597, 0.012583374977111816, -1.028688595915454, 1759350523096674461
0.2587835192680359, -0.4523845314979553, -1.0852582233937644, 1759350523124294407
-0.5269383788108826, -0.3571227192878723, -1.0109483295660766, 1759350523154512997
-0.08624482154846191, -0.24144214391708374, -1.0993639100684596, 1759350523204554259
0.1956096887588501, -0.10913586616516113, -1.120051570439396, 1759350523245316461
-0.04095053672790527, -0.7036936283111572, -1.085637850451669, 1759350523275190048
1.05656898021698, 0.18846791982650757, -1.076851416430171, 1759350523305271469
-0.4244126081466675, -0.595285952091217, -1.020489892445483, 1759350523337201827
-1.015379786491394, -0.35838162899017334, -1.0284521187480435, 1759350523366982907
-0.614615797996521, -0.3289273977279663, -1.080633700952622, 1759350523395709298
-0.3354301452636719, -0.6081053018569946, -1.1263678254359835, 1759350523425328474
0.10145020484924316, -0.5552308559417725, -1.1043485098720733, 1759350523455320419
-0.13807004690170288, -0.45771467685699463, -1.1241999347474427, 1759350523485353395
-0.8823993802070618, -0.46688133478164673, -1.1063363995300093, 1759350523515345275
-0.24061238765716553, -0.6822882294654846, -1.067193261001276, 1759350523545564014
0.5365251302719116, -0.2987668514251709, -1.071871740478479, 1759350523576960340
-0.04313158988952637, -0.5958148837089539, -1.0414149682860634, 1759350523608658753
1.0313122272491455, -0.06999659538269043, -1.1718559403957733, 1759350523635594600
-0.09313470125198364, -0.2559129595756531, -1.0875014480320448, 1759350523665600768
-0.9089625477790833, 0.1671302318572998, -0.921156302557701, 1759350523689485264
0.42583686113357544, -0.12004750967025757, -1.1595501527247423, 1759350523725610121
-0.025760889053344727, -0.8492649793624878, -1.0695738913727937, 1759350523755636335
0.17304587364196777, -0.14167356491088867, -1.0376052085781373, 1759350523785817957
0.7092677354812622, -0.30060243606567383, -1.0447459210911068, 1759350523816864685
-0.11994469165802002, -0.21617764234542847, -1.2138510995548224, 1759350523876328036
-0.37411797046661377, -0.6126293540000916, -1.1000036593956424, 1759350523906078549
-0.7619777917861938, -0.5562232732772827, -1.0685906416105273, 1759350523936055054
-0.4375174641609192, -0.5401943922042847, -1.0971857221279349, 1759350523966259491
-0.5752108097076416, -0.3753401041030884, -1.0719671770680854, 1759350523996214206
-0.12388002872467041, -0.54132479429245, -1.1027984386518703, 1759350524026302788
0.11367785930633545, -0.6184830069541931, -1.1108228161658982, 1759350524056695170
-0.21695858240127563, -0.6227670907974243, -1.0218426170495911, 1759350524088725038
-0.48782235383987427, -0.07383960485458374, -1.1345040260041575, 1759350524116689726
0.27849239110946655, -0.6182696223258972, -1.0847872216770618, 1759350524146526071
-0.33714842796325684, -0.41368794441223145, -1.0820743769252965, 1759350524176818466
0.04990577697753906, -0.8846410512924194, -1.0431720025310376, 1759350524248686698
-0.6838089227676392, -0.4405156970024109, -1.087441606744577, 1759350524279880268
0.73532634973526, -0.0952339768409729, -1.2020491327842804, 1759350524317219000
0.5006736516952515, -0.5356448292732239, -1.1071361559293418, 1759350524347074980
0.11794084310531616, 0.10013198852539062, -1.0929304159590778, 1759350524376155851
1.0855467319488525, -0.7956761717796326, -0.9821222566582473, 1759350524408147715
-0.3053362965583801, -0.43626487255096436, -1.1593808215256332, 1759350524467572576
-0.5390967130661011, -0.354086697101593, -1.102144530329277, 1759350524507353868
-0.4516158699989319, -0.4099811315536499, -1.1064491160113676, 1759350524537608963
0.831258237361908, -0.006055593490600586, -1.1182814382408766, 1759350524568752094
0.060455262660980225, -0.8831632137298584, -1.0338454568627178, 1759350524600968554
0.5947747230529785, 0.3796542286872864, -1.1328130435482073, 1759350524627773207
-0.311231791973114, -0.48433923721313477, -1.0364416703561299, 1759350524657617887
-0.3945057988166809, -0.7279245853424072, -1.019990617807934, 1759350524687688086
0.03220236301422119, -0.4140821099281311, -1.0137881605296026, 1759350524717757626
-0.22178059816360474, 0.008334219455718994, -1.0619793967831042, 1759350524747831345
0.5547170042991638, -0.9844871759414673, -1.069908786282468, 1759350524777895406
0.6697391867637634, -0.22467219829559326, -1.097071162494162, 1759350524808151168
-0.5841516256332397, -0.27235209941864014, -1.0095680775704892, 1759350524841046503
-0.2571842074394226, -0.5569006204605103, -1.2230705630633434, 1759350524866201937
-0.26532453298568726, -0.3733157515525818, -0.9736405841221758, 1759350524898427852
-0.3762282133102417, -0.9236051440238953, -1.0870945238084242, 1759350524928256670
-0.17779070138931274, -0.3880002498626709, -1.0890274010249568, 1759350524958373427
-0.19284969568252563, -0.40666449069976807, -1.099068798021837, 1759350524988399804
-0.39273011684417725, -0.1599593162536621, -1.1279249277376966, 1759350525018526696
-0.33535224199295044, -0.6483829021453857, -1.1248521930681192, 1759350525048739985
0.2577861547470093, -0.5565606355667114, -1.077984939851179, 1759350525080155600
-0.4480007290840149, -0.20029336214065552, -1.1325016473785865, 1759350525108641740
0.8189086318016052, -0.5750635266304016, -1.032869123291101, 1759350525138698765
-1.1620591878890991, -0.29430902004241943, -1.0755720569038667, 1759350525188938434
0.07845157384872437, -0.35109251737594604, -1.1093291783236376, 1759350525219078964
-0.20913749933242798, -0.4134092926979065, -1.1064119800898857, 1759350525248951866
-0.6726747751235962, -0.34433698654174805, -1.1779860955060326, 1759350525299291563
